<Bundle xmlns="http://hl7.org/fhir">
  <id value="Zwangerschap-Keesmaat" />
  <type value="transaction" />
  <entry>
    <fullUrl value="urn:uuid:c755a07e-1904-11eb-6105-020000000000" />
    <resource>
      <Composition>
        <id value="Zwangerschap-Keesmaat-huidig" />
        <status value="final" />
        <type>
          <coding>
            <system value="http://loinc.org" />
            <code value="15508-5" />
            <display value="Labor and delivery records" />
          </coding>
        </type>
        <subject>
          <reference value="urn:uuid:c75595d4-1904-11eb-6105-020000000000" />
          <display value="Keesmaat" />
        </subject>
        <date value="2020-10-28T11:03:07.977+01:00" />
        <author>
          <reference value="Practitioner/c75595df-1904-11eb-6105-020000000000" />
          <display value="Zorgverlener" />
        </author>
        <title value="Prio1 huidige zwangerschap" />
        <section>
          <entry>
            <reference value="urn:uuid:c75595d4-1904-11eb-6105-020000000000" />
            <display value="Keesmaat" />
          </entry>
          <entry>
            <reference value="Organization/c755980f-1904-11eb-6105-020000000000" />
            <display value="Verloskundigenpraktijk A" />
          </entry>
          <entry>
            <reference value="Practitioner/c75595df-1904-11eb-6105-020000000000" />
            <display value="Zorgverlener" />
          </entry>
          <entry>
            <reference value="PractitionerRole/pr1504" />
            <display value="Verloskundigenpraktijk A" />
          </entry>
          <entry>
            <reference value="EpisodeOfCare/c75595ba-1904-11eb-6105-020000000000" />
            <display value="Zwangerschap huidig Keesmaat" />
          </entry>
          <entry>
            <reference value="Condition/c755a91f-1904-11eb-6105-020000000000" />
            <display value="Zwangerschap huidig Keesmaat" />
          </entry>
          <entry>
            <reference value="Observation/c7559976-1904-11eb-6105-020000000000" />
            <display value="bloedgroep vrouwKeesmaat" />
          </entry>
          <entry>
            <reference value="Observation/c7559b10-1904-11eb-6105-020000000000" />
            <display value="rhesus d factor vrouwKeesmaat" />
          </entry>
          <entry>
            <reference value="Observation/c7559caa-1904-11eb-6105-020000000000" />
            <display value="rhesus c factorKeesmaat" />
          </entry>
          <entry>
            <reference value="Observation/c7559e44-1904-11eb-6105-020000000000" />
            <display value="hbKeesmaat" />
          </entry>
          <entry>
            <reference value="Observation/graviditeithuidig" />
            <display value="graviditeitKeesmaat" />
          </entry>
          <entry>
            <reference value="Observation/pariteithuidig" />
            <display value="pariteitKeesmaat" />
          </entry>
          <entry>
            <reference value="Observation/c755a923-1904-11eb-6105-020000000000" />
            <display value="a terme datumKeesmaat" />
          </entry>
        </section>
      </Composition>
    </resource>
    <request>
      <method value="PUT" />
      <url value="Composition/Zwangerschap-Keesmaat-huidig" />
    </request>
  </entry>
  <entry>
    <fullUrl value="urn:uuid:c75595d4-1904-11eb-6105-020000000000" />
    <resource>
      <Patient>
        <id value="c75595d4-1904-11eb-6105-020000000000"/>
        <meta>
          <profile value="http://fhir.nl/fhir/StructureDefinition/nl-core-patient" />
          <profile value="http://nictiz.nl/fhir/StructureDefinition/bc-woman" />
        </meta>
        <identifier>
          <use value="official" />
          <system value="http://fhir.nl/fhir/NamingSystem/bsn" />
          <value value="999996472" />
        </identifier>
        <active value="true" />
        <name>
          <extension url="http://hl7.org/fhir/StructureDefinition/humanname-assembly-order">
              <valueCode value="NL4" />
          </extension>
          <use value="official" />
          <family value="Keesmaat">
              <extension url="http://hl7.org/fhir/StructureDefinition/humanname-own-name">
                  <valueString value="Keesmaat" />
              </extension>
          </family>
          <given value="Eslem">
              <extension url="http://hl7.org/fhir/StructureDefinition/iso21090-EN-qualifier">
                  <valueCode value="BR" />
              </extension>
          </given>
        </name>
        <gender value="female" />
        <birthDate value="1988-10-05" />
      </Patient>
    </resource>
    <request>
      <method value="PUT" />
      <url value="Patient?identifier=999996472" />
    </request>
  </entry>
  <entry>
    <fullUrl value="urn:uuid:c755980f-1904-11eb-6105-020000000000" />
    <resource>
      <Organization>
        <id value="c755980f-1904-11eb-6105-020000000000" />
        <meta>
        <profile value="http://fhir.nl/fhir/StructureDefinition/nl-core-organization" />
        </meta>
        <identifier>
          <system value="http://fhir.nl/fhir/NamingSystem/lvr-instellingid" />
          <value value="37" />
        </identifier>
        <name value="Verloskundigenpraktijk A" />
        <telecom>
            <extension url="http://nictiz.nl/fhir/StructureDefinition/zib-ContactInformation-TelecomType">
                <valueCodeableConcept>
                    <coding>
                        <system value="urn:oid:2.16.840.1.113883.2.4.3.11.60.40.4.22.1" />
                        <code value="LL" />
                        <display value="Vast telefoonnummer" />
                    </coding>
                </valueCodeableConcept>
            </extension>
            <system value="phone" />
            <value value="020-5561356" />
            <use value="work" />
        </telecom>
        <telecom>
            <system value="email" />
            <value value="info@Verloskundigenpraktijka.nl" />
            <use value="work" />
        </telecom>
        <address>
            <line value="Hoofdweg 2a">
                <extension url="http://hl7.org/fhir/StructureDefinition/iso21090-ADXP-streetName">
                    <valueString value="Hoofdweg" />
                </extension>
                <extension url="http://hl7.org/fhir/StructureDefinition/iso21090-ADXP-houseNumber">
                    <valueString value="2" />
                </extension>
                <extension url="http://hl7.org/fhir/StructureDefinition/iso21090-ADXP-buildingNumberSuffix">
                    <valueString value="a" />
                </extension>
            </line>
            <city value="Amsterdam" />
            <postalCode value="1000AA" />
            <country value="NLD">
                <extension url="http://nictiz.nl/fhir/StructureDefinition/code-specification">
                    <valueCodeableConcept>
                        <coding>
                            <system value="urn:oid:2.16.840.1.113883.2.4.4.16.34" />
                            <code value="6030" />
                            <display value="Nederland" />
                        </coding>
                    </valueCodeableConcept>
                </extension>
            </country>
        </address>
    </Organization>
    </resource>
    <request>
      <method value="PUT" />
      <url value="Organization/c755980f-1904-11eb-6105-020000000000" />
    </request>
  </entry>
  <entry>
    <fullUrl value="urn:uuid:c75595df-1904-11eb-6105-020000000000" />
    <resource>
      <Practitioner>
        <id value="c75595df-1904-11eb-6105-020000000000" />
        <meta>
        <profile value="http://fhir.nl/fhir/StructureDefinition/nl-core-practitioner" />
        </meta>
        <identifier>
        <system value="http://fhir.nl/fhir/NamingSystem/lvr-zorgverlenerid" />
        <value value="12345678" />
        </identifier>
        <name>
          <extension url="http://hl7.org/fhir/StructureDefinition/humanname-assembly-order">
              <valueCode value="F" />
          </extension>
          <family value="de Los-van Straten">
              <extension url="http://hl7.org/fhir/StructureDefinition/humanname-own-prefix">
                  <valueString value="de" />
              </extension>
              <extension url="http://hl7.org/fhir/StructureDefinition/humanname-own-name">
                  <valueString value="Los" />
              </extension>
              <extension url="http://hl7.org/fhir/StructureDefinition/humanname-partner-prefix">
                  <valueString value="van" />
              </extension>
              <extension url="http://hl7.org/fhir/StructureDefinition/humanname-partner-name">
                  <valueString value="Straten" />
              </extension>
          </family>
          <given value="Vera">
              <extension url="http://hl7.org/fhir/StructureDefinition/iso21090-EN-qualifier">
                  <valueCode value="BR" />
              </extension>
          </given>
          <given value="V">
              <extension url="http://hl7.org/fhir/StructureDefinition/iso21090-EN-qualifier">
                  <valueCode value="IN" />
              </extension>
          </given>
          <given value="Vera">
              <extension url="http://hl7.org/fhir/StructureDefinition/iso21090-EN-qualifier">
                  <valueCode value="CL" />
              </extension>
          </given>
        </name>
        <telecom>
        <extension url="http://nictiz.nl/fhir/StructureDefinition/zib-ContactInformation-TelecomType">
            <valueCodeableConcept>
                <coding>
                    <system value="http://hl7.org/fhir/v3/AddressUse" />
                    <code value="MC" />
                    <display value="Mobile Phone" />
                </coding>
            </valueCodeableConcept>
        </extension>
        <system value="phone" />
        <value value="0612345678" />
        <use value="work" />
        </telecom>
        <telecom>
          <system value="email" />
          <value value="vdelos@ziekenhuis.nl" />
          <use value="work" />
        </telecom>
        <address>
            <line value="Hoofdweg 1a">
                <extension url="http://hl7.org/fhir/StructureDefinition/iso21090-ADXP-streetName">
                    <valueString value="Hoofdweg" />
                </extension>
                <extension url="http://hl7.org/fhir/StructureDefinition/iso21090-ADXP-houseNumber">
                    <valueString value="1" />
                </extension>
                <extension url="http://hl7.org/fhir/StructureDefinition/iso21090-ADXP-buildingNumberSuffix">
                    <valueString value="a" />
                </extension>
            </line>
            <city value="Amsterdam" />
            <postalCode value="1000AA" />
            <country value="NLD">
                <extension url="http://nictiz.nl/fhir/StructureDefinition/code-specification">
                    <valueCodeableConcept>
                        <coding>
                            <system value="urn:oid:2.16.840.1.113883.2.4.4.16.34" />
                            <code value="6030" />
                            <display value="Nederland" />
                        </coding>
                    </valueCodeableConcept>
                </extension>
            </country>
        </address>
      </Practitioner>
    </resource>
    <request>
      <method value="PUT" />
      <url value="Practitioner/c75595df-1904-11eb-6105-020000000000" />
    </request>
  </entry>
  <entry>
    <fullUrl value="urn:uuid:c75595de-1904-11eb-6105-020000000000" />
    <resource>
      <PractitionerRole>
        <id value="pr1504" />
        <text>
          <status value="generated" />
          <div xmlns="http://www.w3.org/1999/xhtml">
            <table>
              <caption>Zorgverlenerrol</caption>
              <tbody>
                <tr>
                  <th>Zorgverlener</th>
                  <td>
                    <div>
                      <a href="Practitioner/c75595df-1904-11eb-6105-020000000000">Practitioner/c75595df-1904-11eb-6105-020000000000</a>
                    </div>
                    <div>
                      <a href="Organization/c755980f-1904-11eb-6105-020000000000">Verloskundigenpraktijk A</a>
                    </div>
                  </td>
                </tr>
              </tbody>
            </table>
          </div>
        </text>
        <practitioner>
          <reference value="Practitioner/c75595df-1904-11eb-6105-020000000000" />
        </practitioner>
        <organization>
          <reference value="Organization/c755980f-1904-11eb-6105-020000000000" />
          <display value="Verloskundigenpraktijk A" />
        </organization>
      </PractitionerRole>
    </resource>
    <request>
      <method value="PUT" />
      <url value="PractitionerRole/pr1504" />
    </request>
  </entry>
  <entry>
    <fullUrl value="urn:uuid:c75595ba-1904-11eb-6105-020000000000" />
    <resource>
      <EpisodeOfCare>
        <id value="c75595ba-1904-11eb-6105-020000000000" />
        <status value="active" />
        <type>
          <coding>
            <system value="http://snomed.info/sct" />
            <code value="364320009" />
            <display value="Pregnancy observable (observable entity)" />
          </coding>
        </type>
        <diagnosis>
          <condition>
            <reference value="Condition/c755a91f-1904-11eb-6105-020000000000" />
            <display value="Zwangerschap huidig Keesmaat" />
          </condition>
        </diagnosis>
        <patient>
          <reference value="urn:uuid:c75595d4-1904-11eb-6105-020000000000" />
          <display value="Keesmaat" />
        </patient>
        <managingOrganization>
          <reference value="Organization/c755980f-1904-11eb-6105-020000000000" />
          <display value="Verloskundigenpraktijk A" />
        </managingOrganization>
        <careManager>
          <reference value="Practitioner/c75595df-1904-11eb-6105-020000000000" />
        </careManager>
      </EpisodeOfCare>
    </resource>
    <request>
      <method value="PUT" />
      <url value="EpisodeOfCare/c75595ba-1904-11eb-6105-020000000000" />
    </request>
  </entry>
  <entry>
    <fullUrl value="urn:uuid:c755a91f-1904-11eb-6105-020000000000" />
    <resource>
      <Condition>
        <id value="c755a91f-1904-11eb-6105-020000000000" />
        <clinicalStatus value="active" />
        <code>
          <coding>
            <system value="http://snomed.info/sct" />
            <code value="364320009" />
            <display value="Pregnancy observable (observable entity)" />
          </coding>
        </code>
        <subject>
          <reference value="urn:uuid:c75595d4-1904-11eb-6105-020000000000" />
          <display value="Keesmaat" />
        </subject>
        <context>
          <reference value="EpisodeOfCare/c75595ba-1904-11eb-6105-020000000000" />
          <display value="Zwangerschap huidig Keesmaat" />
        </context>
      </Condition>
    </resource>
    <request>
      <method value="PUT" />
      <url value="Condition/c755a91f-1904-11eb-6105-020000000000" />
    </request>
  </entry>
  <entry>
    <fullUrl value="urn:uuid:c7559976-1904-11eb-6105-020000000000" />
    <resource>
      <Observation>
        <id value="c7559976-1904-11eb-6105-020000000000" />
        <text>
          <status value="generated" />
          <div xmlns="http://www.w3.org/1999/xhtml">
            <table>
              <caption>Observatie/bepaling. Subject: <a href="Patient/Keesmaat">Keesmaat</a>. Categorie: 49581000146104 (SNOMED CT), Status: definitief</caption>
              <tbody>
                <tr>
                  <th>Code</th>
                  <th>Waarde</th>
                </tr>
                <tr>
                  <td>
                    <span title="ABO group [Type] in Blood (883-9 - LOINC)">ABO group [Type] in Blood</span>
                  </td>
                  <td>
                    <span title="AB (165743006 - SNOMED CT)">AB</span>
                  </td>
                </tr>
              </tbody>
            </table>
          </div>
        </text>
        <status value="final">
          <extension url="http://nictiz.nl/fhir/StructureDefinition/code-specification">
            <valueCodeableConcept>
              <coding>
                <system value="urn:oid:2.16.840.1.113883.2.4.3.11.60.40.4.16.1" />
                <code value="final" />
                <display value="Final" />
              </coding>
            </valueCodeableConcept>
          </extension>
        </status>
        <category>
          <coding>
            <system value="http://snomed.info/sct" />
            <code value="49581000146104" />
            <display value="Laboratory test finding (finding)" />
          </coding>
        </category>
        <code>
          <coding>
            <system value="http://loinc.org" />
            <code value="883-9" />
            <display value="ABO group [Type] in Blood" />
          </coding>
        </code>
        <subject>
          <reference value="urn:uuid:c75595d4-1904-11eb-6105-020000000000" />
          <display value="Keesmaat" />
        </subject>
        <context>
          <reference value="EpisodeOfCare/c75595ba-1904-11eb-6105-020000000000" />
          <display value="Zwangerschap huidig Keesmaat" />
        </context>
        <valueCodeableConcept>
          <coding>
            <system value="http://snomed.info/sct" />
            <code value="165743006" />
            <display value="AB" />
          </coding>
        </valueCodeableConcept>
      </Observation>
    </resource>
    <request>
      <method value="PUT" />
      <url value="Observation/c7559976-1904-11eb-6105-020000000000" />
    </request>
  </entry>
  <entry>
    <fullUrl value="urn:uuid:c7559b10-1904-11eb-6105-020000000000" />
    <resource>
      <Observation>
        <id value="c7559b10-1904-11eb-6105-020000000000" />
        <text>
          <status value="generated" />
          <div xmlns="http://www.w3.org/1999/xhtml">
            <table>
              <caption>Observatie/bepaling. Subject: <a href="Patient/KeesmaatVANDER">Keesmaat</a>. Categorie: 49581000146104 (SNOMED CT), Status: definitief</caption>
              <tbody>
                <tr>
                  <th>Code</th>
                  <th>Waarde</th>
                </tr>
                <tr>
                  <td>
                    <span title="D Ag [Presence] in Blood (1305-2 - LOINC)">D Ag [Presence] in Blood</span>
                  </td>
                  <td>
                    <span title="Rh D Positief (165747007 - SNOMED CT)">Rh D Positief</span>
                  </td>
                </tr>
              </tbody>
            </table>
          </div>
        </text>
        <status value="final">
          <extension url="http://nictiz.nl/fhir/StructureDefinition/code-specification">
            <valueCodeableConcept>
              <coding>
                <system value="urn:oid:2.16.840.1.113883.2.4.3.11.60.40.4.16.1" />
                <code value="final" />
                <display value="Final" />
              </coding>
            </valueCodeableConcept>
          </extension>
       </status>
        <category>
          <coding>
            <system value="http://snomed.info/sct" />
            <code value="49581000146104" />
            <display value="Laboratory test finding (finding)" />
          </coding>
        </category>
        <code>
          <coding>
            <system value="http://loinc.org" />
            <code value="1305-2" />
            <display value="D Ag [Presence] in Blood" />
          </coding>
        </code>
        <subject>
          <reference value="urn:uuid:c75595d4-1904-11eb-6105-020000000000" />
          <display value="Keesmaat" />
        </subject>
        <context>
          <reference value="EpisodeOfCare/c75595ba-1904-11eb-6105-020000000000" />
          <display value="Zwangerschap huidig Keesmaat" />
        </context>
        <valueCodeableConcept>
          <coding>
            <system value="http://snomed.info/sct" />
            <code value="165747007" />
            <display value="Rh D Positief" />
          </coding>
        </valueCodeableConcept>
      </Observation>
    </resource>
    <request>
      <method value="PUT" />
      <url value="Observation/c7559b10-1904-11eb-6105-020000000000" />
    </request>
  </entry>
  <entry>
    <fullUrl value="urn:uuid:c7559caa-1904-11eb-6105-020000000000" />
    <resource>
      <Observation>
        <id value="c7559caa-1904-11eb-6105-020000000000" />
        <text>
          <status value="generated" />
          <div xmlns="http://www.w3.org/1999/xhtml">
            <table>
              <caption>Observatie/bepaling. Subject: <a href="Patient/Keesmaat">Keesmaat</a>. Categorie: 49581000146104 (SNOMED CT), Status: definitief</caption>
              <tbody>
                <tr>
                  <th>Code</th>
                  <th>Waarde</th>
                </tr>
                <tr>
                  <td>
                    <span title="little c Ag [Presence] on Red Blood Cells (1159-3 - LOINC)">little c Ag [Presence] on Red Blood Cells</span>
                  </td>
                  <td>
                    <span title="Rh c Negatief (733119003 - SNOMED CT)">Rh c Negatief</span>
                  </td>
                </tr>
              </tbody>
            </table>
          </div>
        </text>
        <status value="final">
          <extension url="http://nictiz.nl/fhir/StructureDefinition/code-specification">
            <valueCodeableConcept>
              <coding>
                <system value="urn:oid:2.16.840.1.113883.2.4.3.11.60.40.4.16.1" />
                <code value="final" />
                <display value="Final" />
              </coding>
            </valueCodeableConcept>
          </extension>
        </status>
        <category>
          <coding>
            <system value="http://snomed.info/sct" />
            <code value="49581000146104" />
            <display value="Laboratory test finding (finding)" />
          </coding>
        </category>
        <code>
          <coding>
            <system value="http://loinc.org" />
            <code value="1159-3" />
            <display value="little c Ag [Presence] on Red Blood Cells" />
          </coding>
        </code>
        <subject>
          <reference value="urn:uuid:c75595d4-1904-11eb-6105-020000000000" />
          <display value="Keesmaat" />
        </subject>
        <context>
          <reference value="EpisodeOfCare/c75595ba-1904-11eb-6105-020000000000" />
          <display value="Zwangerschap huidig Keesmaat" />
        </context>
        <valueCodeableConcept>
          <coding>
            <system value="http://snomed.info/sct" />
            <code value="733119003" />
            <display value="Rh c Negatief" />
          </coding>
        </valueCodeableConcept>
      </Observation>
    </resource>
    <request>
      <method value="PUT" />
      <url value="Observation/c7559caa-1904-11eb-6105-020000000000" />
    </request>
  </entry>
  <entry>
    <fullUrl value="urn:uuid:c7559e44-1904-11eb-6105-020000000000" />
    <resource>
      <Observation>
        <id value="c7559e44-1904-11eb-6105-020000000000" />
        <text>
          <status value="generated" />
          <div xmlns="http://www.w3.org/1999/xhtml">
            <table>
              <caption>Observatie/bepaling. Subject: <a href="Patient/Keesmaat">Keesmaat</a>. Categorie: 49581000146104 (SNOMED CT), Status: definitief</caption>
              <tbody>
                <tr>
                  <th>Bepalingdatum/tijd</th>
                  <td>2020-08-17</td>
                </tr>
                <tr>
                  <th>Code</th>
                  <th>Waarde</th>
                </tr>
                <tr>
                  <td>
                    <span title="Hemoglobin (Bld) [Mass/Vol] (718-7 - LOINC)">Hemoglobin (Bld) [Mass/Vol]</span>
                  </td>
                  <td>8.5 mmol/L</td>
                </tr>
              </tbody>
            </table>
          </div>
        </text>
        <status value="final">
          <extension url="http://nictiz.nl/fhir/StructureDefinition/code-specification">
            <valueCodeableConcept>
              <coding>
                <system value="urn:oid:2.16.840.1.113883.2.4.3.11.60.40.4.16.1" />
                <code value="final" />
                <display value="Final" />
              </coding>
            </valueCodeableConcept>
          </extension>
        </status>
        <category>
          <coding>
            <system value="http://snomed.info/sct" />
            <code value="49581000146104" />
            <display value="Laboratory test finding (finding)" />
          </coding>
        </category>
        <code>
          <coding>
            <system value="http://loinc.org" />
            <code value="718-7" />
            <display value="Hemoglobin (Bld) [Mass/Vol]" />
          </coding>
        </code>
        <subject>
          <reference value="urn:uuid:c75595d4-1904-11eb-6105-020000000000" />
          <display value="Keesmaat" />
        </subject>
        <context>
          <reference value="EpisodeOfCare/c75595ba-1904-11eb-6105-020000000000" />
          <display value="Zwangerschap huidig Keesmaat" />
        </context>
        <effectiveDateTime value="2020-08-17" />
        <valueQuantity>
          <value value="8.5" />
          <unit value="mmol/L" />
          <system value="http://unitsofmeasure.org" />
          <code value="mmol/L" />
        </valueQuantity>
      </Observation>
    </resource>
    <request>
      <method value="PUT" />
      <url value="Observation/c7559e44-1904-11eb-6105-020000000000" />
    </request>
  </entry>
  <entry>
    <fullUrl value="urn:uuid:c755a920-1904-11eb-6105-020000000000" />
    <resource>
      <Observation>
        <id value="graviditeithuidig" />
        <extension url="http://nictiz.nl/fhir/StructureDefinition/observation-focusSTU3">
          <valueReference>
            <reference value="Condition/c755a91f-1904-11eb-6105-020000000000" />
            <display value="Zwangerschap huidig Keesmaat" />
          </valueReference>
        </extension>
        <status value="final" />
        <code>
          <coding>
            <system value="2.16.840.1.113883.2.4.4.13" />
            <code value="Gravidity" />
            <display value="Graviditeit" />
          </coding>
        </code>
        <subject>
          <reference value="urn:uuid:c75595d4-1904-11eb-6105-020000000000" />
          <display value="Keesmaat" />
        </subject>
        <context>
          <reference value="EpisodeOfCare/c75595ba-1904-11eb-6105-020000000000" />
          <display value="Zwangerschap huidig Keesmaat" />
        </context>
        <valueQuantity>
          <value value="5" />
        </valueQuantity>
      </Observation>
    </resource>
    <request>
      <method value="PUT" />
      <url value="Observation/graviditeithuidig" />
    </request>
  </entry>
  <entry>
    <fullUrl value="urn:uuid:c755a921-1904-11eb-6105-020000000000" />
    <resource>
      <Observation>
        <id value="pariteithuidig" />
        <extension url="http://nictiz.nl/fhir/StructureDefinition/observation-focusSTU3">
          <valueReference>
            <reference value="Condition/c755a91f-1904-11eb-6105-020000000000" />
            <display value="Zwangerschap huidig Keesmaat" />
          </valueReference>
        </extension>
        <status value="final" />
        <code>
          <coding>
            <system value="2.16.840.1.113883.6.96" />
            <code value="364325004" />
            <display value="Parity (observable entity)" />
          </coding>
        </code>
        <subject>
          <reference value="urn:uuid:c75595d4-1904-11eb-6105-020000000000" />
          <display value="Keesmaat" />
        </subject>
        <context>
          <reference value="EpisodeOfCare/c75595ba-1904-11eb-6105-020000000000" />
          <display value="Zwangerschap huidig Keesmaat" />
        </context>
        <valueQuantity>
          <value value="2" />
        </valueQuantity>
      </Observation>
    </resource>
    <request>
      <method value="PUT" />
      <url value="Observation/pariteithuidig" />
    </request>
  </entry>
  <entry>
    <fullUrl value="urn:uuid:c755a923-1904-11eb-6105-020000000000" />
    <resource>
      <Observation>
        <id value="c755a923-1904-11eb-6105-020000000000" />
        <extension url="http://nictiz.nl/fhir/StructureDefinition/observation-focusSTU3">
          <valueReference>
            <reference value="Condition/c755a91f-1904-11eb-6105-020000000000" />
            <display value="Zwangerschap huidig Keesmaat" />
          </valueReference>
        </extension>
        <status value="final" />
        <code>
          <coding>
            <system value="2.16.840.1.113883.2.4.4.13" />
            <code value="EDD" />
            <display value="A terme datum" />
          </coding>
        </code>
        <subject>
          <reference value="urn:uuid:c75595d4-1904-11eb-6105-020000000000" />
          <display value="Keesmaat" />
        </subject>
        <context>
          <reference value="EpisodeOfCare/c75595ba-1904-11eb-6105-020000000000" />
          <display value="Zwangerschap huidig Keesmaat" />
        </context>
        <valueDateTime value="2021-10-25" />
      </Observation>
    </resource>
    <request>
      <method value="PUT" />
      <url value="Observation/c755a923-1904-11eb-6105-020000000000" />
    </request>
  </entry>
</Bundle>
