<Bundle xmlns="http://hl7.org/fhir">
  <id value="Zwangerschap-Keesmaat" />
  <type value="transaction" />
  <entry>
    <fullUrl value="urn:uuid:c755a07e-1904-11eb-6105-020000000000" />
    <resource>
      <Composition>
        <id value="Zwangerschap-Keesmaat-huidig" />
        <status value="final" />
        <type>
          <coding>
            <system value="http://loinc.org" />
            <code value="15508-5" />
            <display value="Labor and delivery records" />
          </coding>
        </type>
        <subject>
          <reference value="urn:uuid:c75595d4-1904-11eb-6105-020000000000" />
          <display value="Keesmaat" />
        </subject>
        <date value="2020-10-28T11:03:07.977+01:00" />
        <author>
          <reference value="Practitioner/c75595df-1904-11eb-6105-020000000000" />
          <display value="Zorgverlener" />
        </author>
        <title value="Prio1 huidige zwangerschap" />
        <section>
          <entry>
            <reference value="urn:uuid:c75595d4-1904-11eb-6105-020000000000" />
            <display value="Keesmaat" />
          </entry>
          <entry>
            <reference value="Organization/o1504" />
            <display value="Verloskundigenpraktijk A" />
          </entry>
          <entry>
            <reference value="Practitioner/c75595df-1904-11eb-6105-020000000000" />
            <display value="Zorgverlener" />
          </entry>
          <entry>
            <reference value="PractitionerRole/pr1504" />
            <display value="Verloskundigenpraktijk A" />
          </entry>
          <entry>
            <reference value="EpisodeOfCare/c75595ba-1904-11eb-6105-020000000000" />
            <display value="Zwangerschap huidig Keesmaat" />
          </entry>
          <entry>
            <reference value="Condition/c755a91f-1904-11eb-6105-020000000000" />
            <display value="Zwangerschap huidig Keesmaat" />
          </entry>
          <entry>
            <reference value="Observation/c7559976-1904-11eb-6105-020000000000" />
            <display value="bloedgroep vrouwKeesmaat" />
          </entry>
          <entry>
            <reference value="Observation/c7559b10-1904-11eb-6105-020000000000" />
            <display value="rhesus d factor vrouwKeesmaat" />
          </entry>
          <entry>
            <reference value="Observation/c7559caa-1904-11eb-6105-020000000000" />
            <display value="rhesus c factorKeesmaat" />
          </entry>
          <entry>
            <reference value="Observation/c7559e44-1904-11eb-6105-020000000000" />
            <display value="hbKeesmaat" />
          </entry>
          <entry>
            <reference value="Observation/c755a920-1904-11eb-6105-020000000000" />
            <display value="graviditeitKeesmaat" />
          </entry>
          <entry>
            <reference value="Observation/c755a921-1904-11eb-6105-020000000000" />
            <display value="pariteitKeesmaat" />
          </entry>
          <entry>
            <reference value="Observation/c755a923-1904-11eb-6105-020000000000" />
            <display value="a terme datumKeesmaat" />
          </entry>
        </section>
      </Composition>
    </resource>
    <request>
      <method value="PUT" />
      <url value="Composition/Zwangerschap-Keesmaat-huidig" />
    </request>
  </entry>
  <entry>
    <fullUrl value="urn:uuid:c75595d4-1904-11eb-6105-020000000000" />
    <resource>
      <Patient>
        <text>
          <status value="generated" />
          <div xmlns="http://www.w3.org/1999/xhtml">
            <div>Id 999996472 (BSN), Keesmaat</div>
          </div>
        </text>
        <identifier>
          <system value="http://fhir.nl/fhir/NamingSystem/bsn" />
          <value value="999996472" />
        </identifier>
        <name>
          <family value="Keesmaat">
            <extension url="http://hl7.org/fhir/StructureDefinition/humanname-own-name">
              <valueString value="Keesmaat" />
            </extension>
          </family>
        </name>
      </Patient>
    </resource>
    <request>
      <method value="PUT" />
      <url value="Patient?identifier=999996472" />
    </request>
  </entry>
  <entry>
    <fullUrl value="urn:uuid:c755980f-1904-11eb-6105-020000000000" />
    <resource>
      <Organization>
        <id value="o1504" />
        <text>
          <status value="generated" />
          <div xmlns="http://www.w3.org/1999/xhtml">
            <table>
              <caption>OrganisatieId: 1504</caption>
              <tbody>
                <tr>
                  <th>Naam</th>
                  <td>Verloskundigenpraktijk A</td>
                </tr>
              </tbody>
            </table>
          </div>
        </text>
        <identifier>
          <value value="o1504" />
        </identifier>
        <name value="Verloskundigenpraktijk A" />
      </Organization>
    </resource>
    <request>
      <method value="PUT" />
      <url value="Organization/o1504" />
    </request>
  </entry>
  <entry>
    <fullUrl value="urn:uuid:c75595df-1904-11eb-6105-020000000000" />
    <resource>
      <Practitioner>
        <id value="c75595df-1904-11eb-6105-020000000000" />
        <text>
          <status value="generated" />
          <div xmlns="http://www.w3.org/1999/xhtml">
            <div />
          </div>
        </text>
      </Practitioner>
    </resource>
    <request>
      <method value="PUT" />
      <url value="Practitioner/c75595df-1904-11eb-6105-020000000000" />
    </request>
  </entry>
  <entry>
    <fullUrl value="urn:uuid:c75595de-1904-11eb-6105-020000000000" />
    <resource>
      <PractitionerRole>
        <id value="pr1504" />
        <text>
          <status value="generated" />
          <div xmlns="http://www.w3.org/1999/xhtml">
            <table>
              <caption>Zorgverlenerrol</caption>
              <tbody>
                <tr>
                  <th>Zorgverlener</th>
                  <td>
                    <div>
                      <a href="Practitioner/c75595df-1904-11eb-6105-020000000000">Practitioner/c75595df-1904-11eb-6105-020000000000</a>
                    </div>
                    <div>
                      <a href="Organization/o1504">Verloskundigenpraktijk A</a>
                    </div>
                  </td>
                </tr>
              </tbody>
            </table>
          </div>
        </text>
        <practitioner>
          <reference value="Practitioner/c75595df-1904-11eb-6105-020000000000" />
        </practitioner>
        <organization>
          <reference value="Organization/o1504" />
          <display value="Verloskundigenpraktijk A" />
        </organization>
      </PractitionerRole>
    </resource>
    <request>
      <method value="PUT" />
      <url value="PractitionerRole/pr1504" />
    </request>
  </entry>
  <entry>
    <fullUrl value="urn:uuid:c75595ba-1904-11eb-6105-020000000000" />
    <resource>
      <EpisodeOfCare>
        <id value="c75595ba-1904-11eb-6105-020000000000" />
        <status value="active" />
        <type>
          <coding>
            <system value="http://snomed.info/sct" />
            <code value="364320009" />
            <display value="Pregnancy observable (observable entity)" />
          </coding>
        </type>
        <diagnosis>
          <condition>
            <reference value="Condition/c755a91f-1904-11eb-6105-020000000000" />
            <display value="Zwangerschap huidig Keesmaat" />
          </condition>
        </diagnosis>
        <patient>
          <reference value="urn:uuid:c75595d4-1904-11eb-6105-020000000000" />
          <display value="Keesmaat" />
        </patient>
        <managingOrganization>
          <reference value="Organization/o1504" />
          <display value="Verloskundigenpraktijk A" />
        </managingOrganization>
        <careManager>
          <reference value="Practitioner/c75595df-1904-11eb-6105-020000000000" />
        </careManager>
      </EpisodeOfCare>
    </resource>
    <request>
      <method value="PUT" />
      <url value="EpisodeOfCare/c75595ba-1904-11eb-6105-020000000000" />
    </request>
  </entry>
  <entry>
    <fullUrl value="urn:uuid:c755a91f-1904-11eb-6105-020000000000" />
    <resource>
      <Condition>
        <id value="c755a91f-1904-11eb-6105-020000000000" />
        <clinicalStatus value="active" />
        <code>
          <coding>
            <system value="http://snomed.info/sct" />
            <code value="364320009" />
            <display value="Pregnancy observable (observable entity)" />
          </coding>
        </code>
        <subject>
          <reference value="urn:uuid:c75595d4-1904-11eb-6105-020000000000" />
          <display value="Keesmaat" />
        </subject>
        <context>
          <reference value="EpisodeOfCare/c75595ba-1904-11eb-6105-020000000000" />
          <display value="Zwangerschap huidig Keesmaat" />
        </context>
      </Condition>
    </resource>
    <request>
      <method value="PUT" />
      <url value="Condition/c755a91f-1904-11eb-6105-020000000000" />
    </request>
  </entry>
  <entry>
    <fullUrl value="urn:uuid:c7559976-1904-11eb-6105-020000000000" />
    <resource>
      <Observation>
        <id value="c7559976-1904-11eb-6105-020000000000" />
        <text>
          <status value="generated" />
          <div xmlns="http://www.w3.org/1999/xhtml">
            <table>
              <caption>Observatie/bepaling. Subject: <a href="Patient/Keesmaat">Keesmaat</a>. Categorie: 49581000146104 (SNOMED CT), Status: definitief</caption>
              <tbody>
                <tr>
                  <th>Code</th>
                  <th>Waarde</th>
                </tr>
                <tr>
                  <td>
                    <span title="ABO group [Type] in Blood (883-9 - LOINC)">ABO group [Type] in Blood</span>
                  </td>
                  <td>
                    <span title="AB (165743006 - SNOMED CT)">AB</span>
                  </td>
                </tr>
              </tbody>
            </table>
          </div>
        </text>
        <status value="final">
          <extension url="http://nictiz.nl/fhir/StructureDefinition/code-specification">
            <valueCodeableConcept>
              <coding>
                <system value="urn:oid:2.16.840.1.113883.2.4.3.11.60.40.4.16.1" />
                <code value="final" />
                <display value="Final" />
              </coding>
            </valueCodeableConcept>
          </extension>
        </status>
        <category>
          <coding>
            <system value="http://snomed.info/sct" />
            <code value="49581000146104" />
            <display value="Laboratory test finding (finding)" />
          </coding>
        </category>
        <code>
          <coding>
            <system value="http://loinc.org" />
            <code value="883-9" />
            <display value="ABO group [Type] in Blood" />
          </coding>
        </code>
        <subject>
          <reference value="urn:uuid:c75595d4-1904-11eb-6105-020000000000" />
          <display value="Keesmaat" />
        </subject>
        <context>
          <reference value="EpisodeOfCare/c75595ba-1904-11eb-6105-020000000000" />
          <display value="Zwangerschap huidig Keesmaat" />
        </context>
        <valueCodeableConcept>
          <coding>
            <system value="http://snomed.info/sct" />
            <code value="165743006" />
            <display value="AB" />
          </coding>
        </valueCodeableConcept>
      </Observation>
    </resource>
    <request>
      <method value="PUT" />
      <url value="Observation/c7559976-1904-11eb-6105-020000000000" />
    </request>
  </entry>
  <entry>
    <fullUrl value="urn:uuid:c7559b10-1904-11eb-6105-020000000000" />
    <resource>
      <Observation>
        <id value="c7559b10-1904-11eb-6105-020000000000" />
        <text>
          <status value="generated" />
          <div xmlns="http://www.w3.org/1999/xhtml">
            <table>
              <caption>Observatie/bepaling. Subject: <a href="Patient/KeesmaatVANDER">Keesmaat</a>. Categorie: 49581000146104 (SNOMED CT), Status: definitief</caption>
              <tbody>
                <tr>
                  <th>Code</th>
                  <th>Waarde</th>
                </tr>
                <tr>
                  <td>
                    <span title="D Ag [Presence] in Blood (1305-2 - LOINC)">D Ag [Presence] in Blood</span>
                  </td>
                  <td>
                    <span title="Rh D Positief (165747007 - SNOMED CT)">Rh D Positief</span>
                  </td>
                </tr>
              </tbody>
            </table>
          </div>
        </text>
        <status value="final">
          <extension url="http://nictiz.nl/fhir/StructureDefinition/code-specification">
            <valueCodeableConcept>
              <coding>
                <system value="urn:oid:2.16.840.1.113883.2.4.3.11.60.40.4.16.1" />
                <code value="final" />
                <display value="Final" />
              </coding>
            </valueCodeableConcept>
          </extension>
       </status>
        <category>
          <coding>
            <system value="http://snomed.info/sct" />
            <code value="49581000146104" />
            <display value="Laboratory test finding (finding)" />
          </coding>
        </category>
        <code>
          <coding>
            <system value="http://loinc.org" />
            <code value="1305-2" />
            <display value="D Ag [Presence] in Blood" />
          </coding>
        </code>
        <subject>
          <reference value="urn:uuid:c75595d4-1904-11eb-6105-020000000000" />
          <display value="Keesmaat" />
        </subject>
        <context>
          <reference value="EpisodeOfCare/c75595ba-1904-11eb-6105-020000000000" />
          <display value="Zwangerschap huidig Keesmaat" />
        </context>
        <valueCodeableConcept>
          <coding>
            <system value="http://snomed.info/sct" />
            <code value="165747007" />
            <display value="Rh D Positief" />
          </coding>
        </valueCodeableConcept>
      </Observation>
    </resource>
    <request>
      <method value="PUT" />
      <url value="Observation/c7559b10-1904-11eb-6105-020000000000" />
    </request>
  </entry>
  <entry>
    <fullUrl value="urn:uuid:c7559caa-1904-11eb-6105-020000000000" />
    <resource>
      <Observation>
        <id value="c7559caa-1904-11eb-6105-020000000000" />
        <text>
          <status value="generated" />
          <div xmlns="http://www.w3.org/1999/xhtml">
            <table>
              <caption>Observatie/bepaling. Subject: <a href="Patient/Keesmaat">Keesmaat</a>. Categorie: 49581000146104 (SNOMED CT), Status: definitief</caption>
              <tbody>
                <tr>
                  <th>Code</th>
                  <th>Waarde</th>
                </tr>
                <tr>
                  <td>
                    <span title="little c Ag [Presence] on Red Blood Cells (1159-3 - LOINC)">little c Ag [Presence] on Red Blood Cells</span>
                  </td>
                  <td>
                    <span title="Rh c Negatief (733119003 - SNOMED CT)">Rh c Negatief</span>
                  </td>
                </tr>
              </tbody>
            </table>
          </div>
        </text>
        <status value="final">
          <extension url="http://nictiz.nl/fhir/StructureDefinition/code-specification">
            <valueCodeableConcept>
              <coding>
                <system value="urn:oid:2.16.840.1.113883.2.4.3.11.60.40.4.16.1" />
                <code value="final" />
                <display value="Final" />
              </coding>
            </valueCodeableConcept>
          </extension>
        </status>
        <category>
          <coding>
            <system value="http://snomed.info/sct" />
            <code value="49581000146104" />
            <display value="Laboratory test finding (finding)" />
          </coding>
        </category>
        <code>
          <coding>
            <system value="http://loinc.org" />
            <code value="1159-3" />
            <display value="little c Ag [Presence] on Red Blood Cells" />
          </coding>
        </code>
        <subject>
          <reference value="urn:uuid:c75595d4-1904-11eb-6105-020000000000" />
          <display value="Keesmaat" />
        </subject>
        <context>
          <reference value="EpisodeOfCare/c75595ba-1904-11eb-6105-020000000000" />
          <display value="Zwangerschap huidig Keesmaat" />
        </context>
        <valueCodeableConcept>
          <coding>
            <system value="http://snomed.info/sct" />
            <code value="733119003" />
            <display value="Rh c Negatief" />
          </coding>
        </valueCodeableConcept>
      </Observation>
    </resource>
    <request>
      <method value="PUT" />
      <url value="Observation/c7559caa-1904-11eb-6105-020000000000" />
    </request>
  </entry>
  <entry>
    <fullUrl value="urn:uuid:c7559e44-1904-11eb-6105-020000000000" />
    <resource>
      <Observation>
        <id value="c7559e44-1904-11eb-6105-020000000000" />
        <text>
          <status value="generated" />
          <div xmlns="http://www.w3.org/1999/xhtml">
            <table>
              <caption>Observatie/bepaling. Subject: <a href="Patient/Keesmaat">Keesmaat</a>. Categorie: 49581000146104 (SNOMED CT), Status: definitief</caption>
              <tbody>
                <tr>
                  <th>Bepalingdatum/tijd</th>
                  <td>2020-08-17</td>
                </tr>
                <tr>
                  <th>Code</th>
                  <th>Waarde</th>
                </tr>
                <tr>
                  <td>
                    <span title="Hemoglobin (Bld) [Mass/Vol] (718-7 - LOINC)">Hemoglobin (Bld) [Mass/Vol]</span>
                  </td>
                  <td>8.5 mmol/L</td>
                </tr>
              </tbody>
            </table>
          </div>
        </text>
        <status value="final">
          <extension url="http://nictiz.nl/fhir/StructureDefinition/code-specification">
            <valueCodeableConcept>
              <coding>
                <system value="urn:oid:2.16.840.1.113883.2.4.3.11.60.40.4.16.1" />
                <code value="final" />
                <display value="Final" />
              </coding>
            </valueCodeableConcept>
          </extension>
        </status>
        <category>
          <coding>
            <system value="http://snomed.info/sct" />
            <code value="49581000146104" />
            <display value="Laboratory test finding (finding)" />
          </coding>
        </category>
        <code>
          <coding>
            <system value="http://loinc.org" />
            <code value="718-7" />
            <display value="Hemoglobin (Bld) [Mass/Vol]" />
          </coding>
        </code>
        <subject>
          <reference value="urn:uuid:c75595d4-1904-11eb-6105-020000000000" />
          <display value="Keesmaat" />
        </subject>
        <context>
          <reference value="EpisodeOfCare/c75595ba-1904-11eb-6105-020000000000" />
          <display value="Zwangerschap huidig Keesmaat" />
        </context>
        <effectiveDateTime value="2020-08-17" />
        <valueQuantity>
          <value value="8.5" />
          <unit value="mmol/L" />
          <system value="http://unitsofmeasure.org" />
          <code value="mmol/L" />
        </valueQuantity>
      </Observation>
    </resource>
    <request>
      <method value="PUT" />
      <url value="Observation/c7559e44-1904-11eb-6105-020000000000" />
    </request>
  </entry>
  <entry>
    <fullUrl value="urn:uuid:c755a920-1904-11eb-6105-020000000000" />
    <resource>
      <Observation>
        <id value="c755a920-1904-11eb-6105-020000000000" />
        <extension url="http://nictiz.nl/fhir/StructureDefinition/observation-focusSTU3">
          <valueReference>
            <reference value="Condition/c755a91f-1904-11eb-6105-020000000000" />
            <display value="Zwangerschap huidig Keesmaat" />
          </valueReference>
        </extension>
        <status value="final" />
        <code>
          <coding>
            <system value="2.16.840.1.113883.2.4.4.13" />
            <code value="Gravidity" />
            <display value="Graviditeit" />
          </coding>
        </code>
        <subject>
          <reference value="urn:uuid:c75595d4-1904-11eb-6105-020000000000" />
          <display value="Keesmaat" />
        </subject>
        <context>
          <reference value="EpisodeOfCare/c75595ba-1904-11eb-6105-020000000000" />
          <display value="Zwangerschap huidig Keesmaat" />
        </context>
        <valueQuantity>
          <value value="4" />
        </valueQuantity>
      </Observation>
    </resource>
    <request>
      <method value="PUT" />
      <url value="Observation/c755a920-1904-11eb-6105-020000000000" />
    </request>
  </entry>
  <entry>
    <fullUrl value="urn:uuid:c755a921-1904-11eb-6105-020000000000" />
    <resource>
      <Observation>
        <id value="c755a921-1904-11eb-6105-020000000000" />
        <extension url="http://nictiz.nl/fhir/StructureDefinition/observation-focusSTU3">
          <valueReference>
            <reference value="Condition/c755a91f-1904-11eb-6105-020000000000" />
            <display value="Zwangerschap huidig Keesmaat" />
          </valueReference>
        </extension>
        <status value="final" />
        <code>
          <coding>
            <system value="2.16.840.1.113883.6.96" />
            <code value="364325004" />
            <display value="Parity (observable entity)" />
          </coding>
        </code>
        <subject>
          <reference value="urn:uuid:c75595d4-1904-11eb-6105-020000000000" />
          <display value="Keesmaat" />
        </subject>
        <context>
          <reference value="EpisodeOfCare/c75595ba-1904-11eb-6105-020000000000" />
          <display value="Zwangerschap huidig Keesmaat" />
        </context>
        <valueQuantity>
          <value value="2" />
        </valueQuantity>
      </Observation>
    </resource>
    <request>
      <method value="PUT" />
      <url value="Observation/c755a921-1904-11eb-6105-020000000000" />
    </request>
  </entry>
  <entry>
    <fullUrl value="urn:uuid:c755a923-1904-11eb-6105-020000000000" />
    <resource>
      <Observation>
        <id value="c755a923-1904-11eb-6105-020000000000" />
        <extension url="http://nictiz.nl/fhir/StructureDefinition/observation-focusSTU3">
          <valueReference>
            <reference value="Condition/c755a91f-1904-11eb-6105-020000000000" />
            <display value="Zwangerschap huidig Keesmaat" />
          </valueReference>
        </extension>
        <status value="final" />
        <code>
          <coding>
            <system value="2.16.840.1.113883.2.4.4.13" />
            <code value="EDD" />
            <display value="A terme datum" />
          </coding>
        </code>
        <subject>
          <reference value="urn:uuid:c75595d4-1904-11eb-6105-020000000000" />
          <display value="Keesmaat" />
        </subject>
        <context>
          <reference value="EpisodeOfCare/c75595ba-1904-11eb-6105-020000000000" />
          <display value="Zwangerschap huidig Keesmaat" />
        </context>
        <valueDateTime value="2021-10-25" />
      </Observation>
    </resource>
    <request>
      <method value="PUT" />
      <url value="Observation/c755a923-1904-11eb-6105-020000000000" />
    </request>
  </entry>
</Bundle>