{
  "resourceType": "Bundle",
  "id": "0b231197-1188-4717-b30e-b642e480c2a1",
  "type": "transaction",
  "entry": [
    {
      "resource": {
        "resourceType": "Composition",
        "id": "Composition-IZK-Leegwater",
        "meta": {
          "profile": [
            "http://nictiz.nl/fhir/StructureDefinition/bc-TransactionComposition"
          ]
        },
        "status": "final",
        "type": {
          "coding": [
            {
              "system": "http://loinc.org",
              "code": "15508-5",
              "display": "Labor and delivery records"
            }
          ]
        },
        "subject": {
          "reference": "Patient/Leegwater"
        },
        "date": "2021-02-16T15:04:16.5777651T01:00",
        "author": {
            "reference": "Practitioner/IZK-AnnekeLeegwater-Practicioner",
            "display": "MW Verloskundige"
          },
        "title": "Prio1 huidige zwangerschap",
        "section": [
          {
            "entry": [
              {
                "reference": "Patient/Leegwater",
                "display": "Anneke Leegwater"
              },
              {
                "reference": "Organization/IZK-AnnekeLeegwater-Organization",
                "display": "Verloskundigenpraktijk De Boom"
              },
              {
                "reference": "Practitioner/IZK-AnnekeLeegwater-Practicioner",
                "display": "MW Verloskundige"
              },
              {
                "reference": "EpisodeOfCare/IZK-AnnekeLeegwater-EpisodeOfCare",
                "display": "Zwangerschap Anneke Leegwater"
              },
              {
                "reference": "Condition/IZK-AnnekeLeegwater-Condition-Zwangerschap",
                "display": "Zwangerschap Anneke Leegwater"
              },
              {
                "reference": "Observation/IZK-AnnekeLeegwater-Observation-Bloedgroep",
                "display": "Bloedgroep Anneke Leegwater"
              },
              {
                "reference": "Observation/IZK-AnnekeLeegwater-Observation-RhesusD",
                "display": "Rhesus D factor Anneke Leegwater"
              },
              {
                "reference": "Observation/IZK-AnnekeLeegwater-Observation-RhesusC",
                "display": "Rhesus C factor Anneke Leegwater"
              },
              {
                "reference": "Observation/IZK-AnnekeLeegwater-Observation-HB",
                "display": "Hb Anneke Leegwater"
              },
              {
                "reference": "Observation/IZK-AnnekeLeegwater-Observation-Graviditeit",
                "display": "Graviditeit Anneke Leegwater"
              },
              {
                "reference": "Observation/IZK-AnnekeLeegwater-Observation-Pariteit",
                "display": "Pariteit Anneke Leegwater"
              },
              {
                "reference": "Observation/IZK-AnnekeLeegwater-Observation-GeschatteATerme",
                "display": "Geschatte A terme datum Anneke Leegwater"
              },
              {
                "reference": "Observation/IZK-AnnekeLeegwater-Observation-DefATerme",
                "display": "Definitieve A terme datum Anneke Leegwater"
              },
              {
                "reference": "Observation/IZK-AnnekeLeegwater-Observation-AantalLevendeNakomelingen",
                "display": "Aantal levende nakomelingen zwangerschap Anneke Leegwater"
              },
              {
                "reference": "Encounter/IZK-AnnekeLeegwater-Encounter-PrenataleControle",
                "display": "prenatale controle anneke Leegwater"
              },
              {
                "reference": "Observation/IZK-AnnekeLeegwater-Observation-Gewicht",
                "display": "Gewicht Anneke Leegwater"
              },
              {
                "reference": "Observation/IZK-AnnekeLeegwater-Observation-Bloeddruk",
                "display": "Bloeddruk Anneke Leegwater"
              },
              {
                "reference": "Observation/IZK-AnnekeLeegwater-Observation-AlcoholGebruik",
                "display": "alcohol drinking behaviour Anneke Leegwater"
              },
              {
                "reference": "Observation/IZK-AnnekeLeegwater-Observation-DrugsGebruik",
                "display" : "drug misuse behaviour Anneke Leegwater"
              },
              {
                "reference": "Observation/IZK-AnnekeLeegwater-Observation-TabakGebruik",
                "display": "Tobacco use and exposure Anneke Leegwater"
              },
              {
                "reference": "Observation/IZK-AnnekeLeegwater-Observation-FoetaleHartfrequentie",
                "display": "Foetale hartfrequentie"
              },
              {
                "reference": "Condition/IZK-AnnekeLeegwater-Condition-Disorder-LargeForDatesFetus",
                "display": "Large-for-dates fetus (disorder)"
              },
              {
                "reference": "Procedure/IZK-AnnekeLeegwater-Procedure-PrenataalOnderzoekEnZorg",
                "display": "Prenataal onderzoek en zorg voor moeder"
              },
              {
                "reference": "Procedure/IZK-AnnekeLeegwater-Procedure-Bevalling",
                "display": "Bevalling Anneke Leegwater"
              },
              {
                "reference": "Observation/IZK-AnnekeLeegwater-Observation-Zwangerschapsduur",
                "display": "Zwangerschapsduur Anneke Leegwater "
              }


            ]
          }
        ]
      },
      "request": {
        "method": "PUT",
        "url": "Composition/Composition-IZK-Leegwater"
      }
    },
    {
      "fullUrl": "Patient/Leegwater",
      "resource": {
        "resourceType": "Patient",
        "id": "Leegwater",
        "meta": {
          "profile": [
            "http://fhir.nl/fhir/StructureDefinition/nl-core-patient",
            "http://nictiz.nl/fhir/StructureDefinition/bc-Woman"
          ]
        },
        "text": {
          "status": "generated",
          "div": "Anneke Leegwater"
        },
        "identifier": [
          {
            "use": "official",
            "system": "http://fhir.nl/fhir/NamingSystem/bsn",
            "value": "999995923"
          }
        ],
        "name": [
          {
            "extension": [
              {
                "url": "http://hl7.org/fhir/StructureDefinition/humanname-assembly-order",
                "valueCode": "NL4"
              }
            ],
            "family": "Leegwater"
          }
        ],
        "telecom": [
          {
            "extension": [
              {
                "url": "http://nictiz.nl/fhir/StructureDefinition/zib-ContactInformation-TelecomType",
                "valueCodeableConcept": {
                  "coding": [
                    {
                      "system": "urn:oid:2.16.840.1.113883.2.4.3.11.60.40.4.22.1",
                      "code": "LL",
                      "display": "Vast telefoonnummer"
                    }
                  ]
                }
              }
            ],
            "system": "phone",
            "value": "0382-56997",
            "use": "home"
          },
          {
            "extension": [
              {
                "url": "http://nictiz.nl/fhir/StructureDefinition/zib-ContactInformation-TelecomType",
                "valueCodeableConcept": {
                  "coding": [
                    {
                      "system": "http://hl7.org/fhir/v3/AddressUse",
                      "code": "MC",
                      "display": "Mobiel telefoonnummer"
                    }
                  ]
                }
              }
            ],
            "system": "phone",
            "value": "0614548585",
            "use": "mobile"
          },
          {
            "system": "email",
            "value": "Anneke@Leegwater.nl",
            "use": "home"
          }
        ],
        "gender": "female",
        "birthDate": "1988-10-03",
        "address": [
          {
            "extension": [
              {
                "url": "http://fhir.nl/fhir/StructureDefinition/nl-core-address-official",
                "valueBoolean": true
              },
              {
                "url": "http://nictiz.nl/fhir/StructureDefinition/zib-AddressInformation-AddressType",
                "valueCodeableConcept": {
                  "coding": [
                    {
                      "system": "http://hl7.org/fhir/v3/AddressUse",
                      "code": "HP",
                      "display": "Officieel adres"
                    }
                  ]
                }
              }
            ],
            "use": "home",
            "line": [
              "Onder het water 1"
            ],
            "_line": [
              {
                "extension": [
                  {
                    "url": "http://hl7.org/fhir/StructureDefinition/iso21090-ADXP-streetName",
                    "valueString": "Onder het water"
                  },
                  {
                    "url": "http://hl7.org/fhir/StructureDefinition/iso21090-ADXP-houseNumber",
                    "valueString": "1"
                  }
                ]
              }
            ],
            "city": "Amsterdam",
            "postalCode": "1000AB",
            "country": "Nederland",
            "_country": {
              "extension": [
                {
                  "url": "http://nictiz.nl/fhir/StructureDefinition/code-specification",
                  "valueCodeableConcept": {
                    "coding": [
                      {
                        "system": "urn:iso:std:iso:3166",
                        "code": "NL",
                        "display": "Nederland"
                      }
                    ]
                  }
                }
              ]
            }
          }
        ]
      },
      "request": {
        "method": "PUT",
        "url": "Patient/Leegwater"
      }
    },
    {
      "fullUrl": "Organization/IZK-AnnekeLeegwater-Organization",
      "resource": {
        "resourceType": "Organization",
        "id": "IZK-AnnekeLeegwater-Organization",
        "meta": {
          "profile": [
            "http://fhir.nl/fhir/StructureDefinition/nl-core-organization"
          ]
        },
        "text": {
          "status": "generated",
          "div": "Verloskundigenpraktijk De Boom"
        },
        "identifier": [
          {
            "system": "http://fhir.nl/fhir/NamingSystem/agb-z/",
            "value": "12345678"
          },
          {
            "system": "http://fhir.nl/fhir/NamingSystem/ura",
            "value": "12341234"
          }
        ],
        "name": "Verloskundigenpraktijk De Boom",
        "telecom": [
          {
            "extension": [
              {
                "url": "http://nictiz.nl/fhir/StructureDefinition/zib-ContactInformation-TelecomType",
                "valueCodeableConcept": {
                  "coding": [
                    {
                      "system": "urn:oid:2.16.840.1.113883.2.4.3.11.60.40.4.22.1",
                      "code": "LL",
                      "display": "Vast telefoonnummer"
                    }
                  ]
                }
              }
            ],
            "system": "phone",
            "value": "(0000) - 000000",
            "use": "work"
          },
          {
            "extension": [
              {
                "url": "http://nictiz.nl/fhir/StructureDefinition/zib-ContactInformation-TelecomType",
                "valueCodeableConcept": {
                  "coding": [
                    {
                      "system": "http://hl7.org/fhir/v3/AddressUse",
                      "code": "MC",
                      "display": "Mobiel telefoonnummer"
                    }
                  ]
                }
              }
            ],
            "system": "phone",
            "value": "0614548585",
            "use": "mobile"
          }
        ],
        "address": [
          {
            "extension": [
              {
                "url": "http://fhir.nl/fhir/StructureDefinition/nl-core-address-official",
                "valueBoolean": true
              },
              {
                "url": "http://nictiz.nl/fhir/StructureDefinition/zib-AddressInformation-AddressType",
                "valueCodeableConcept": {
                  "coding": [
                    {
                      "system": "http://hl7.org/fhir/v3/AddressUse",
                      "code": "WP",
                      "display": "Werkadres"
                    }
                  ]
                }
              }
            ],
            "use": "work",
            "line": [
              "Boven het water 54A"
            ],
            "_line": [
              {
                "extension": [
                  {
                    "url": "http://hl7.org/fhir/StructureDefinition/iso21090-ADXP-streetName",
                    "valueString": "Boven het Water"
                  },
                  {
                    "url": "http://hl7.org/fhir/StructureDefinition/iso21090-ADXP-houseNumber",
                    "valueString": "54"
                  },
                  {
                    "url": "http://hl7.org/fhir/StructureDefinition/iso21090-ADXP-buildingNumberSuffix",
                    "valueString": "A"
                  }
                ]
              }
            ],
            "city": "Amsterdam",
            "postalCode": "1000CD",
            "country": "Nederland",
            "_country": {
              "extension": [
                {
                  "url": "http://nictiz.nl/fhir/StructureDefinition/code-specification",
                  "valueCodeableConcept": {
                    "coding": [
                      {
                        "system": "urn:iso:std:iso:3166",
                        "code": "NL",
                        "display": "Nederland"
                      }
                    ]
                  }
                }
              ]
            }
          }
        ]
      },
      "request": {
        "method": "PUT",
        "url": "Organization/IZK-AnnekeLeegwater-Organization"
      }
    },
    {
      "fullUrl": "urn:uuid:IZK-AnnekeLeegwater-Practicioner",
      "resource": {
        "resourceType": "Practitioner",
        "id": "IZK-AnnekeLeegwater-Practicioner",
        "meta": {
          "profile": [
            "http://fhir.nl/fhir/StructureDefinition/nl-core-practitioner"
          ]
        },
        "text": {
          "status": "generated",
          "div": "MW Verloskundige"
        },
        "identifier": [
          {
            "system": "http://fhir.nl/fhir/NamingSystem/uzi-nr-pers",
            "value": "123456789"
          }
        ]
      },
      "request": {
        "method": "PUT",
        "url": "Practitioner/IZK-AnnekeLeegwater-Practicioner"
      }
    },
    {
      "fullUrl": "EpisodeOfCare/IZK-AnnekeLeegwater-EpisodeOfCare",
      "resource": {
        "resourceType": "EpisodeOfCare",
        "id": "IZK-AnnekeLeegwater-EpisodeOfCare",
        "meta": {
          "profile": [
            "http://fhir.nl/fhir/StructureDefinition/nl-core-episodeofcare",
            "http://nictiz.nl/fhir/StructureDefinition/bc-MaternalRecord"
          ]
        },
        "text": {
          "status": "generated",
          "div": "Zwangerschap Anneke Leegwater"
        },
        "status": "finished",
        "type": [
          {
            "coding": [
              {
                "system": "http://snomed.info/sct",
                "code": "364320009",
                "display": "Pregnancy observable (observable entity)"
              }
            ]
          }
        ],
        "diagnosis": [
          {
            "condition": {
              "reference": "Condition/IZK-AnnekeLeegwater-Condition-Zwangerschap"
            }
          }
        ],
        "patient": {
          "reference": "Patient/Leegwater"
        },
        "managingOrganization": {
          "reference": "Organization/IZK-AnnekeLeegwater-Organization"
        },
        "period": {
          "start": "2015-11-10",
          "end": "2016-08-04"
        }
      },
      "request": {
        "method": "PUT",
        "url": "EpisodeOfCare/IZK-AnnekeLeegwater-EpisodeOfCare"
      }
    },
    {
      "fullUrl": "Condition/IZK-AnnekeLeegwater-Condition-Zwangerschap",
      "resource": {
        "resourceType": "Condition",
        "id": "IZK-AnnekeLeegwater-Condition-Zwangerschap",
        "meta": {
          "profile": [
            "http://nictiz.nl/fhir/StructureDefinition/zib-Pregnancy"
          ]
        },
        "text": {
          "status": "generated",
          "div": "Zwangerschap Anneke Leegwater"
        },
        "clinicalStatus": "inactive",
        "_clinicalStatus": {
          "extension": [
            {
              "url": "http://nictiz.nl/fhir/StructureDefinition/code-specification",
              "valueCodeableConcept": {
                "coding": [
                  {
                    "system": "http://snomed.info/sct",
                    "code": "73425007",
                    "display": "Niet actueel"
                  }
                ]
              }
            }
          ]
        },
        "code": {
          "coding": [
            {
              "system": "http://snomed.info/sct",
              "code": "364320009",
              "display": "Pregnancy observable"
            }
          ]
        },
        "subject": {
          "reference": "Patient/Leegwater"
        },
        "context": {
          "reference": "EpisodeOfCare/IZK-AnnekeLeegwater-EpisodeOfCare"
        }
      },
      "request": {
        "method": "PUT",
        "url": "Condition/IZK-AnnekeLeegwater-Condition-Zwangerschap"
      }
    },
    {
      "fullUrl": "urn:uuid:IZK-AnnekeLeegwater-Observation-Bloedgroep",
      "resource": {
        "resourceType": "Observation",
        "id" : "IZK-AnnekeLeegwater-Observation-Bloedgroep",
        "meta": {
          "profile": [
            "http://fhir.nl/fhir/StructureDefinition/nl-core-observation",
            "http://nictiz.nl/fhir/StructureDefinition/zib-LaboratoryTestResult-Observation"
          ]
        },
        "text": {
          "status": "generated",
          "div": "Bloedgroep Anneke Leegwater"
        },
        "status": "final",
        "_status": {
          "extension": [
            {
              "url": "http://nictiz.nl/fhir/StructureDefinition/code-specification",
              "valueCodeableConcept": {
                "coding": [
                  {
                    "system": "urn:oid:2.16.840.1.113883.2.4.3.11.60.40.4.16.1",
                    "code": "final",
                    "display": "Definitief"
                  }
                ]
              }
            }
          ]
        },
        "category": [
          {
            "coding": [
              {
                "system": "http://snomed.info/sct",
                "code": "49581000146104",
                "display": "Laboratory test finding (finding)"
              }
            ],
            "text": "Laboratory"
          }
        ],
        "code": {
          "coding": [
            {
              "system": "http://loinc.org",
              "code": "883-9",
              "display": "ABO group [Type] in Blood"
            }
          ]
        },
        "subject": {
          "reference": "Patient/Leegwater"
        },
        "context": {
          "reference": "EpisodeOfCare/IZK-AnnekeLeegwater-EpisodeOfCare"
        },
        "effectiveDateTime": "2018-07-10",
        "valueCodeableConcept": {
          "coding": [
            {
              "system": "http://snomed.info/sct",
              "code": "58460004",
              "display": "Blood group O"
            }
          ],
          "text": "Bloedgroep: O"
        }
      },
      "request": {
        "method": "PUT",
        "url": "Observation/IZK-AnnekeLeegwater-Observation-Bloedgroep"
      }
    },
    {
      "fullUrl": "urn:uuid:IZK-AnnekeLeegwater-Observation-RhesusD",
      "resource": {
        "resourceType": "Observation",
        "id": "IZK-AnnekeLeegwater-Observation-RhesusD",
        "meta": {
          "profile": [
            "http://fhir.nl/fhir/StructureDefinition/nl-core-observation",
            "http://nictiz.nl/fhir/StructureDefinition/zib-LaboratoryTestResult-Observation"
          ]
        },
        "text": {
          "status": "generated",
          "div": "Rhesus D factor Anneke Leegwater"
        },
        "status": "final",
        "_status": {
          "extension": [
            {
              "url": "http://nictiz.nl/fhir/StructureDefinition/code-specification",
              "valueCodeableConcept": {
                "coding": [
                  {
                    "system": "urn:oid:2.16.840.1.113883.2.4.3.11.60.40.4.16.1",
                    "code": "final",
                    "display": "Definitief"
                  }
                ]
              }
            }
          ]
        },
        "category": [
          {
            "coding": [
              {
                "system": "http://snomed.info/sct",
                "code": "49581000146104",
                "display": "Laboratory test finding (finding)"
              }
            ],
            "text": "Laboratory"
          }
        ],
        "code": {
          "coding": [
            {
              "system": "http://loinc.org",
              "code": "978-7",
              "display": "D Ag [Presence] on Red Blood Cells"
            }
          ]
        },
        "subject": {
          "reference": "Patient/Leegwater"
        },
        "context": {
          "reference": "EpisodeOfCare/IZK-AnnekeLeegwater-EpisodeOfCare"
        },
        "effectiveDateTime": "2020-09-10",
        "valueCodeableConcept": {
          "coding": [
            {
              "system": "http://snomed.info/sct",
              "code": "165747007",
              "display": "RhD positive"
            }
          ],
          "text": "RhD positief"
        }
      },
      "request": {
        "method": "PUT",
        "url": "Observation/IZK-AnnekeLeegwater-Observation-RhesusD"
      }
    },
    {
      "fullUrl": "urn:uuid:IZK-AnnekeLeegwater-Observation-RhesusC",
      "resource": {
        "resourceType": "Observation",
        "id": "IZK-AnnekeLeegwater-Observation-RhesusC",
        "meta": {
          "profile": [
            "http://fhir.nl/fhir/StructureDefinition/nl-core-observation",
            "http://nictiz.nl/fhir/StructureDefinition/zib-LaboratoryTestResult-Observation"
          ]
        },
        "text": {
          "status": "generated",
          "div": "Rhesus c factor Anneke Leegwater"
        },
        "status": "final",
        "_status": {
          "extension": [
            {
              "url": "http://nictiz.nl/fhir/StructureDefinition/code-specification",
              "valueCodeableConcept": {
                "coding": [
                  {
                    "system": "urn:oid:2.16.840.1.113883.2.4.3.11.60.40.4.16.1",
                    "code": "final",
                    "display": "Definitief"
                  }
                ]
              }
            }
          ]
        },
        "category": [
          {
            "coding": [
              {
                "system": "http://snomed.info/sct",
                "code": "49581000146104",
                "display": "Laboratory test finding (finding)"
              }
            ],
            "text": "Laboratory"
          }
        ],
        "code": {
          "coding": [
            {
              "system": "http://loinc.org",
              "code": "1159-3",
              "display": "little c Ag [Presence] on Red Blood Cells"
            }
          ]
        },
        "subject": {
          "reference": "Patient/Leegwater"
        },
        "context": {
          "reference": "EpisodeOfCare/IZK-AnnekeLeegwater-EpisodeOfCare"
        },
        "effectiveDateTime": "2020-11-05",
        "valueCodeableConcept": {
          "coding": [
            {
              "system": "http://snomed.info/sct",
              "code": "733119003",
              "display": "Rhc negative"
            }
          ],
          "text": "Rhc negatief"
        }
      },
      "request": {
        "method": "PUT",
        "url": "Observation/IZK-AnnekeLeegwater-Observation-RhesusC"
      }
    },
    {
      "fullUrl": "urn:uuid:IZK-AnnekeLeegwater-Observation-HB",
      "resource": {
        "resourceType": "Observation",
        "id": "IZK-AnnekeLeegwater-Observation-HB",
        "meta": {
          "profile": [
            "http://fhir.nl/fhir/StructureDefinition/nl-core-observation",
            "http://nictiz.nl/fhir/StructureDefinition/zib-LaboratoryTestResult-Observation"
          ]
        },
        "text": {
          "status": "generated",
          "div": "Hb Anneke Leegwater"
        },
        "status": "final",
        "_status": {
          "extension": [
            {
              "url": "http://nictiz.nl/fhir/StructureDefinition/code-specification",
              "valueCodeableConcept": {
                "coding": [
                  {
                    "system": "urn:oid:2.16.840.1.113883.2.4.3.11.60.40.4.16.1",
                    "code": "final",
                    "display": "Definitief"
                  }
                ]
              }
            }
          ]
        },
        "category": [
          {
            "coding": [
              {
                "system": "http://snomed.info/sct",
                "code": "49581000146104",
                "display": "Laboratory test finding (finding)"
              }
            ],
            "text": "Laboratory"
          }
        ],
        "code": {
          "coding": [
            {
              "system": "http://loinc.org",
              "code": "718-7",
              "display": "Hemoglobin (Bld) [Mass/Vol]"
            }
          ]
        },
        "subject": {
          "reference": "Patient/Leegwater"
        },
        "context": {
          "reference": "EpisodeOfCare/IZK-AnnekeLeegwater-EpisodeOfCare"
        },
        "effectiveDateTime": "2020-02-06",
        "valueQuantity": {
          "value": 9,
          "system": "http://unitsofmeasure.org",
          "code": "mmol/L"
        }
      },
      "request": {
        "method": "PUT",
        "url": "Observation/IZK-AnnekeLeegwater-Observation-HB"
      }
    },
    {
      "fullUrl": "urn:uuid:IZK-AnnekeLeegwater-Observation-Graviditeit",
      "resource": {
        "resourceType": "Observation",
        "id": "IZK-AnnekeLeegwater-Observation-Graviditeit",
        "meta": {
          "profile": [
            "http://fhir.nl/fhir/StructureDefinition/nl-core-observation",
            "http://nictiz.nl/fhir/StructureDefinition/zib-Pregnancy-Gravidity"
          ]
        },
        "text": {
          "status": "generated",
          "div": "Graviditeit Anneke Leegwater"
        },
        "extension": [
          {
            "url": "http://nictiz.nl/fhir/StructureDefinition/observation-focusSTU3",
            "valueReference": {
              "reference": "Condition/IZK-AnnekeLeegwater-Condition-Zwangerschap"
            }
          }
        ],
        "status": "final",
        "code": {
          "coding": [
            {
              "system": "http://loinc.org",
              "code": "11996-6",
              "display": "Graviditeit"
            }
          ]
        },
        "subject": {
          "reference": "Patient/Leegwater"
        },
        "context": {
          "reference": "EpisodeOfCare/IZK-AnnekeLeegwater-EpisodeOfCare"
        },
        "valueQuantity": {
          "value": 2,
          "system": "http://unitsofmeasure.org",
          "code": "1"
        }
      },
      "request": {
        "method": "PUT",
        "url": "Observation/IZK-AnnekeLeegwater-Observation-Graviditeit"
      }
    },
    {
      "fullUrl": "urn:uuid:IZK-AnnekeLeegwater-Observation-Pariteit",
      "resource": {
        "resourceType": "Observation",
        "id": "IZK-AnnekeLeegwater-Observation-Pariteit",
        "meta": {
          "profile": [
            "http://fhir.nl/fhir/StructureDefinition/nl-core-observation",
            "http://nictiz.nl/fhir/StructureDefinition/zib-Pregnancy-Parity"
          ]
        },
        "text": {
          "status": "generated",
          "div": "Pariteit Anneke Leegwater"
        },
        "extension": [
          {
            "url": "http://nictiz.nl/fhir/StructureDefinition/observation-focusSTU3",
            "valueReference": {
              "reference": "Condition/IZK-AnnekeLeegwater-Condition-Zwangerschap"
            }
          }
        ],
        "status": "final",
        "code": {
          "coding": [
            {
              "system": "http://loinc.org",
              "code": "11977-6",
              "display": "Pariteit"
            }
          ]
        },
        "subject": {
          "reference": "Patient/Leegwater"
        },
        "context": {
          "reference": "EpisodeOfCare/IZK-AnnekeLeegwater-EpisodeOfCare"
        },
        "valueQuantity": {
          "value": 1,
          "system": "http://unitsofmeasure.org",
          "code": "1"
        }
      },
      "request": {
        "method": "PUT",
        "url": "Observation/IZK-AnnekeLeegwater-Observation-Pariteit"
      }
    },
    {
      "fullUrl": "urn:uuid:IZK-AnnekeLeegwater-Observation-GeschatteATerme",
      "resource": {
        "resourceType": "Observation",
        "id": "IZK-AnnekeLeegwater-Observation-GeschatteATerme",
        "meta": {
          "profile": [
            "http://fhir.nl/fhir/StructureDefinition/nl-core-observation",
            "http://nictiz.nl/fhir/StructureDefinition/zib-Pregnancy-TermDate"
          ]
        },
        "text": {
          "status": "generated",
          "div": "A terme datum Anneke Leegwater"
        },
        "extension": [
          {
            "url": "http://nictiz.nl/fhir/StructureDefinition/observation-focusSTU3",
            "valueReference": {
              "reference": "Condition/IZK-AnnekeLeegwater-Condition-Zwangerschap"
            }
          }
        ],
        "status": "final",
        "code": {
          "coding": [
            {
              "system": "http://loinc.org",
              "code": "11778-8",
              "display": "A terme datum"
            }
          ]
        },
        "subject": {
          "reference": "Patient/Leegwater"
        },
        "context": {
          "reference": "EpisodeOfCare/IZK-AnnekeLeegwater-EpisodeOfCare"
        },
        "valueDateTime": "2017-08-13",
        "method": {
          "coding":  [
              {
                  "system": "https://snomed.info/sct",
                  "code": "31541000146106",
                  "display": "Date of delivery estimation based on diagnostic ultrasonography"
              }
          ]
        }
      },
      "request": {
        "method": "PUT",
        "url": "Observation/IZK-AnnekeLeegwater-Observation-GeschatteATerme"
      }
    },
    {
      "fullUrl": "urn:uuid:IZK-AnnekeLeegwater-Observation-DefATerme",
      "resource": {
        "resourceType": "Observation",
        "id": "IZK-AnnekeLeegwater-Observation-DefATerme",
        "meta": {
            "profile":  [
                "http://fhir.nl/fhir/StructureDefinition/nl-core-observation",
                "http://nictiz.nl/fhir/StructureDefinition/bc-PregnancyObservation"
            ]
        },
        "extension":  [
            {
                "url": "http://nictiz.nl/fhir/StructureDefinition/observation-focusSTU3",
                "valueReference": {
                    "reference": "Condition/IZK-AnnekeLeegwater-Condition-Zwangerschap",
                    "display": "Zwangerschap Anneke Leegwater"
                }
            }
        ],
        "status": "final",
        "code": {
            "coding":  [
                {
                    "system": "urn:oid:2.16.840.1.113883.2.4.4.13",
                    "code": "147781000146105",
                    "display": "definitieve uitgerekende datum van partus (waarneembare entiteit)"
                }
            ]
        },
        "subject": {
            "reference": "Patient/Leegwater",
            "display": "Anneke Leegwater"
        },
        "context": {
            "reference": "EpisodeOfCare/IZK-AnnekeLeegwater-EpisodeOfCare",
            "display": "Zwangerschap Anneke Leegwater"
        },
        "effectiveDateTime": "2020-09-17",
        "performer":  [
            {
                "reference": "Practitioner/IZK-AnnekeLeegwater-Practicioner",
                "display": "MW Verloskundige"
            }
        ],
        "valueDateTime": "2020-09-17",
        "comment": "definitieve schatting",
        "method": {
            "coding":  [
                {
                    "system": "https://snomed.info/sct",
                    "code": "241491007",
                    "display": "echografie van foetus (verrichting)"
                }
            ]
        }
      },
      "request": {
        "method": "PUT",
        "url": "Observation/IZK-AnnekeLeegwater-Observation-DefATerme"
      }
    },

    {
      "fullUrl": "urn:uuid:IZK-AnnekeLeegwater-Observation-AantalLevendeNakomelingen",
      "resource": {
        "resourceType": "Observation",
        "id": "IZK-AnnekeLeegwater-Observation-AantalLevendeNakomelingen",
        "meta": {
            "profile":  [
                "http://fhir.nl/fhir/StructureDefinition/nl-core-observation",
                "http://nictiz.nl/fhir/StructureDefinition/bc-PregnancyObservation"
            ]
        },
        "extension":  [
            {
                "url": "http://nictiz.nl/fhir/StructureDefinition/observation-focusSTU3",
                "valueReference": {
                    "reference": "Condition/IZK-AnnekeLeegwater-Condition-Zwangerschap",
                    "display": "Zwangerschap Anneke Leegwater"
                }
            }
        ],
        "status": "final",
        "code": {
            "coding":  [
                {
                    "system": "http://snomed.info/sct",
                    "code": "143881000146107",
                    "display": "aantal levende nakomelingen (waarneembare entiteit)"
                }
            ]
        },
        "subject": {
            "reference": "Patient/Leegwater",
            "display": "Anneke Leegwater"
        },
        "context": {
            "reference": "EpisodeOfCare/IZK-AnnekeLeegwater-EpisodeOfCare"
        },
        "effectiveDateTime": "2020-04-15",
        "performer":  [
            {
                "reference": "Practitioner/IZK-AnnekeLeegwater-Practicioner",
                "display": "MW Verloskundige"
            }
        ],
        "valueQuantity": {
            "value": 1,
            "system": "http://unitsofmeasure.org",
            "code": "1"
        },
        "comment": "Gezonde nakomeling",
        "method": {
            "coding":  [
                {
                    "system": "https://snomed.info/sct",
                    "code": "418799008",
                    "display": "symptoom gerapporteerd door patiënt of andere bron van voorgeschiedenis (bevinding)"
                }
            ]
        }
      },
      "request": {
        "method": "PUT",
        "url": "Observation/IZK-AnnekeLeegwater-Observation-AantalLevendeNakomelingen"
      }
    },
    {
      "fullUrl": "urn:uuid:IZK-AnnekeLeegwater-Encounter-PrenataleControle",
      "resource": {
        "resourceType": "Encounter",
        "id": "IZK-AnnekeLeegwater-Encounter-PrenataleControle",
        "meta": {
          "profile": [
            "http://fhir.nl/fhir/StructureDefinition/bc-Encounter"
          ]
        },
        "status": "finished",
        "class": {
            "extension":  [
                {
                    "url": "http://nictiz.nl/fhir/StructureDefinition/code-specification",
                    "valueCodeableConcept": {
                        "coding":  [
                            {
                                "system": "http://hl7.org/fhir/v3/ActCode",
                                "code": "AMB",
                                "display": "Ambulatory"
                            }
                        ],
                        "text": "Poliklinisch"
                    }
                }
            ]
        },
        "type":  [
            {
                "coding":  [
                    {
                        "system": "http://snomed.info/sct",
                        "code": "18114009",
                        "display": "prenataal onderzoek en zorg voor moeder (procedure)"
                    }
                ]
            }
        ],
        "subject": {
            "reference": "Patient/Leegwater"
        },
        "episodeOfCare":  [
            {
                "reference": "EpisodeOfCare/IZK-AnnekeLeegwater-EpisodeOfCare"
            }
        ],
        "period": {
            "start": "2015-10-02T10:30:00+01:00"
        },
        "diagnosis":  [
            {
                "condition": {
                    "reference": "Condition/IZK-AnnekeLeegwater-Condition-Zwangerschap"
                }
            }
        ]
      },
      "request": {
        "method": "PUT",
        "url": "Encounter/IZK-AnnekeLeegwater-Encounter-PrenataleControle"
      }
    },
    {
      "fullUrl": "urn:uuid:IZK-AnnekeLeegwater-Observation-Gewicht",
      "resource": {
        "resourceType": "Observation",
        "id": "IZK-AnnekeLeegwater-Observation-Gewicht",
        "meta": {
            "profile":  [
                "http://nictiz.nl/fhir/StructureDefinition/zib-BodyWeight"
            ]
        },
        "status": "final",
        "category":  [
            {
                "coding":  [
                    {
                        "system": "http://hl7.org/fhir/observation-category",
                        "code": "exam",
                        "display": "Exam"
                    }
                ]
            }
        ],
        "code": {
            "coding":  [
                {
                    "system": "http://loinc.org",
                    "code": "29463-7",
                    "display": "Body weight"
                }
            ]
        },
        "subject": {
            "reference": "Patient/Leegwater",
            "display": "Anneke Leegwater"
        },
        "context": {
            "reference": "Encounter/IZK-AnnekeLeegwater-Encounter-PrenataleControle"
        },
        "effectiveDateTime": "2020-02-27",
        "performer":  [
            {
                "reference": "Practitioner/IZK-AnnekeLeegwater-Practicioner"
            }
        ],
        "valueQuantity": {
            "value": 76,
            "system": "http://unitsofmeasure.org",
            "code": "kg"
        }
      },
      "request": {
        "method": "PUT",
        "url": "Observation/IZK-AnnekeLeegwater-Observation-Gewicht"
      }
    },
    {
      "fullUrl": "urn:uuid:IZK-AnnekeLeegwater-Observation-Bloeddruk",
      "resource": {
        "resourceType": "Observation",
        "id": "IZK-AnnekeLeegwater-Observation-Bloeddruk",
        "meta": {
            "profile":  [
                "http://nictiz.nl/fhir/StructureDefinition/zib-BloodPressure"
            ]
        },
        "status": "final",
        "category":  [
            {
                "coding":  [
                    {
                        "system": "http://hl7.org/fhir/observation-category",
                        "code": "vital-signs",
                        "display": "Vital Signs"
                    }
                ]
            }
        ],
        "code": {
            "coding":  [
                {
                    "system": "http://loinc.org",
                    "code": "85354-9",
                    "display": "Blood pressure panel with all children optional"
                }
            ]
        },
        "subject": {
            "reference": "Patient/Leegwater",
            "display": "Anneke Leegwater"
        },
        "effectiveDateTime": "2013-02-01",
        "component":  [
            {
                "code": {
                    "coding":  [
                        {
                            "system": "http://loinc.org",
                            "code": "8480-6",
                            "display": "Systolic blood pressure"
                        }
                    ]
                },
                "valueQuantity": {
                    "value": 108,
                    "unit": "mmHg",
                    "system": "http://unitsofmeasure.org",
                    "code": "mm[Hg]"
                }
            },
            {
                "code": {
                    "coding":  [
                        {
                            "system": "http://loinc.org",
                            "code": "8462-4",
                            "display": "Diastolic blood pressure"
                        }
                    ]
                },
                "valueQuantity": {
                    "value": 78,
                    "unit": "mmHg",
                    "system": "http://unitsofmeasure.org",
                    "code": "mm[Hg]"
                }
            }
        ]
      },
      "request": {
        "method": "PUT",
        "url": "Observation/IZK-AnnekeLeegwater-Observation-Bloeddruk"
      }
    },
    {
      "fullUrl": "urn:uuid:IZK-AnnekeLeegwater-Observation-AlcoholGebruik",
      "resource": {
        "resourceType": "Observation",
        "id": "IZK-AnnekeLeegwater-Observation-AlcoholGebruik",
        "meta": {
            "profile":  [
                "http://nictiz.nl/fhir/StructureDefinition/zib-AlcoholUse"
            ]
        },
        "status": "final",
        "code": {
            "coding":  [
                {
                    "system": "http://snomed.info/sct",
                    "code": "228273003",
                    "display": "Finding relating to alcohol drinking behavior (finding)"
                }
            ]
        },
        "subject": {
            "reference": "Patient/Leegwater",
            "display": "Anneke Leegwater"
        },
        "context": {
            "reference": "Encounter/IZK-AnnekeLeegwater-Encounter-PrenataleControle"
        },
        "effectivePeriod": {
            "start": "2007",
            "end": "2021"
        },
        "valueCodeableConcept": {
            "extension":  [
                {
                    "url": "http://nictiz.nl/fhir/StructureDefinition/code-specification",
                    "valueCodeableConcept": {
                        "coding":  [
                            {
                                "system": "Alcoholgebruik",
                                "code": "1",
                                "display": "geen"
                            }
                        ]
                    }
                }
            ],
            "coding":  [
                {
                    "system": "http://snomed.info/sct",
                    "code": "82581004",
                    "display": "Ex-drinker (finding)"
                }
            ]
        },
        "comment": "gestopt vanwege de zwangerschap",
        "component":  [
            {
                "code": {
                    "coding":  [
                        {
                            "system": "http://snomed.info/sct",
                            "code": "160573003",
                            "display": "Alcohol intake (observable entity)"
                        }
                    ]
                },
                "valueQuantity": {
                    "value": 2,
                    "unit": "glasses/week",
                    "system": "http://unitsofmeasure.org",
                    "code": "glasses/wk"
                }
            }
        ]
      },
      "request": {
        "method": "PUT",
        "url": "Observation/IZK-AnnekeLeegwater-Observation-AlcoholGebruik"
      }
    },
    {
      "fullUrl": "urn:uuid:IZK-AnnekeLeegwater-Observation-DrugsGebruik",
      "resource": {
        "resourceType": "Observation",
        "id": "IZK-AnnekeLeegwater-Observation-DrugsGebruik",
        "meta": {
            "profile":  [
                "http://nictiz.nl/fhir/StructureDefinition/zib-DrugUse"
            ]
        },
        "status": "final",
        "code": {
            "coding":  [
                {
                    "system": "http://snomed.info/sct",
                    "code": "228366006",
                    "display": "Finding relating to drug misuse behavior (finding)"
                }
            ]
        },
        "subject": {
            "reference": "Patient/Leegwater",
            "display": "Anneke Leegwater"
        },
        "context": {
            "reference": "Encounter/IZK-AnnekeLeegwater-Encounter-PrenataleControle"
        },
        "effectivePeriod": {
            "start": "2012",
            "end": "2021"
        },
        "valueCodeableConcept": {
            "coding":  [
                {
                    "system": "http://snomed.info/sct",
                    "code": "44870007",
                    "display": "Misused drugs in past (finding)"
                }
            ]
        },
        "comment": "gestopt vanwege de zwangerschap",
        "component":  [
            {
                "code": {
                    "coding":  [
                        {
                            "system": "http://snomed.info/sct",
                            "code": "410942007",
                            "display": "Drug or medicament (substance)"
                        }
                    ]
                },
                "valueCodeableConcept": {
                    "coding":  [
                        {
                            "system": "http://snomed.info/sct",
                            "code": "398705004",
                            "display": "Cannabis (substance)"
                        }
                    ]
                }
            },
            {
                "code": {
                    "coding":  [
                        {
                            "system": "http://snomed.info/sct",
                            "code": "228390007",
                            "display": "Frequency of drug misuse (observable entity)"
                        }
                    ]
                },
                "valueString": "Om het weekend eenmaal 1 eenheid"
            }
        ]
      },
      "request": {
        "method": "PUT",
        "url": "Observation/IZK-AnnekeLeegwater-Observation-DrugsGebruik"
      }
    },
    {
      "fullUrl": "urn:uuid:IZK-AnnekeLeegwater-Observation-TabakGebruik",
      "resource": {
        "resourceType": "Observation",
        "id": "IZK-AnnekeLeegwater-Observation-TabakGebruik",
        "meta": {
            "profile":  [
                "http://nictiz.nl/fhir/StructureDefinition/zib-TobaccoUse"
            ]
        },
        "status": "final",
        "code": {
            "coding":  [
                {
                    "system": "http://snomed.info/sct",
                    "code": "365980008",
                    "display": "Finding of tobacco use and exposure (finding)"
                }
            ]
        },
        "subject": {
            "reference": "Patient/Leegwater",
            "display": "Anneke Leegwater"
        },
        "context": {
            "reference": "Encounter/IZK-AnnekeLeegwater-Encounter-PrenataleControle"
        },
        "effectivePeriod": {
            "start": "2000",
            "end": "2019"
        },
        "valueCodeableConcept": {
            "extension":  [
                {
                    "url": "http://nictiz.nl/fhir/StructureDefinition/code-specification",
                    "valueCodeableConcept": {
                        "coding":  [
                            {
                                "system": "RookgedragVMISLijst",
                                "code": "5",
                                "display": "gestopt vóór huidige zwangerschap"
                            }
                        ]
                    }
                }
            ],
            "coding":  [
                {
                    "system": "http://snomed.info/sct",
                    "code": "8517006",
                    "display": "Ex-smoker (finding)"
                }
            ]
        },
        "comment": "Gestopt ivm zwangerschap",
        "component":  [
            {
                "code": {
                    "coding":  [
                        {
                            "system": "http://snomed.info/sct",
                            "code": "266918002",
                            "display": "Tobacco smoking consumption (observable entity)"
                        }
                    ]
                },
                "valueQuantity": {
                    "value": 2,
                    "unit": "packs per week",
                    "system": "http://unitsofmeasure.org",
                    "code": "{packs}/wk"
                }
            },
            {
                "code": {
                    "coding":  [
                        {
                            "system": "http://snomed.info/sct",
                            "code": "401201003",
                            "display": "Cigarette pack-years (observable entity)"
                        }
                    ]
                },
                "valueQuantity": {
                    "value": 19,
                    "unit": "PackYears",
                    "system": "http://unitsofmeasure.org",
                    "code": "{PackYears}"
                }
            }
        ]
      },
      "request": {
        "method": "PUT",
        "url": "Observation/IZK-AnnekeLeegwater-Observation-TabakGebruik"
      }
    },
    {
      "fullUrl": "urn:uuid:IZK-AnnekeLeegwater-Observation-FoetaleHartfrequentie",
      "resource": {
        "resourceType": "Observation",
        "id": "IZK-AnnekeLeegwater-Observation-FoetaleHartfrequentie",
        "meta": {
            "profile":  [
                "http://fhir.nl/fhir/StructureDefinition/nl-core-observation",
                "http://nictiz.nl/fhir/StructureDefinition/bc-PregnancyObservation"
            ]
        },
        "extension":  [
            {
                "url": "http://nictiz.nl/fhir/StructureDefinition/observation-focusSTU3",
                "valueReference": {
                    "reference": "Condition/IZK-AnnekeLeegwater-Condition-Zwangerschap"
                }
            }
        ],
        "status": "final",
        "code": {
            "coding":  [
                {
                    "system": "http://snomed.info/sct",
                    "code": "249043002",
                    "display": "foetale hartfrequentie (waarneembare entiteit)"
                }
            ]
        },
        "subject": {
            "reference": "Patient/Leegwater",
            "display": "Anneke Leegwater"
        },
        "context": {
            "reference": "EpisodeOfCare/IZK-AnnekeLeegwater-EpisodeOfCare"
        },
        "effectiveDateTime": "2020-04-15",
        "valueQuantity": {
            "value": 120,
            "unit": "min",
            "system": "http://unitsofmeasure.org",
            "code": "min"
        },
        "interpretation": {
            "coding":  [
                {
                    "system": "http://snomed.info/sct",
                    "code": "278084002",
                    "display": "normale basishartfrequentie van foetus (bevinding)"
                }
            ]
        },
        "comment": "Regelmatig hartritme",
        "method": {
            "coding":  [
                {
                    "system": "https://snomed.info/sct",
                    "code": "408806008",
                    "display": "monitoren van foetale hart met handdoppler (regime/therapie)"
                }
            ]
        },
        "component":  [
            {
                "code": {
                    "coding":  [
                        {
                            "system": "http://snomed.info/sct",
                            "code": "249044008",
                            "display": "foetaal hartritme (waarneembare entiteit)"
                        }
                    ]
                },
                "valueCodeableConcept": {
                    "coding":  [
                        {
                            "system": "http://snomed.info/sct",
                            "code": "289443009",
                            "display": "regelmatig hartritme van foetus (bevinding)"
                        }
                    ]
                }
            }
        ]
      },
      "request": {
        "method": "PUT",
        "url": "Observation/IZK-AnnekeLeegwater-Observation-FoetaleHartfrequentie"
      }
    },
    {
      "fullUrl": "urn:uuid:IZK-AnnekeLeegwater-Condition-Disorder-LargeForDatesFetus",
      "resource": {
        "resourceType": "Condition",
        "id": "IZK-AnnekeLeegwater-Condition-Disorder-LargeForDatesFetus",
        "meta": {
            "profile":  [
                "http://nictiz.nl/fhir/StructureDefinition/zib-problem",
                "http://nictiz.nl/fhir/StructureDefinition/bc-DisorderOfPregnancy"
            ]
        },
        "extension":  [
            {
                "url": "http://hl7.org/fhir/StructureDefinition/condition-partOf",
                "valueReference": {
                    "reference": "Condition/IZK-AnnekeLeegwater-Condition-Zwangerschap"
                }
            }
        ],
        "clinicalStatus": "active",
        "category":  [
            {
                "coding":  [
                    {
                        "system": "http://snomed.info/sct",
                        "code": "282291009",
                        "display": "Diagnosis"
                    }
                ]
            }
        ],
        "code": {
            "coding":  [
                {
                    "system": "http://snomed.info/sct",
                    "code": "199616008",
                    "display": "Large-for-dates fetus (disorder)"
                }
            ]
        },
        "subject": {
            "reference": "Patient/Leegwater",
            "display": "Anneke Leegwater"
        },
        "context": {
            "reference": "EpisodeOfCare/IZK-AnnekeLeegwater-EpisodeOfCare"
        },
        "note":  [
            {
                "text": "ouders zelf ook groot bij geboorte"
            }
        ]
      },
      "request": {
        "method": "PUT",
        "url": "Condition/IZK-AnnekeLeegwater-Condition-Disorder-LargeForDatesFetus"
      }
    },
    {
      "fullUrl": "urn:uuid:IZK-AnnekeLeegwater-Procedure-PrenataalOnderzoekEnZorg",
      "resource": {
        "resourceType": "Procedure",
        "id": "IZK-AnnekeLeegwater-Procedure-PrenataalOnderzoekEnZorg",
        "meta": {
            "profile":  [
                "http://nictiz.nl/fhir/StructureDefinition/bc-ObstetricProcedure"
            ]
        },
        "status": "completed",
        "category": {
            "coding":  [
                {
                    "system": "http://snomed.info/sct",
                    "code": "386637004",
                    "display": "Obstetric procedure (procedure)"
                }
            ]
        },
        "code": {
            "coding":  [
                {
                    "system": "http://snomed.info/sct",
                    "code": "18114009",
                    "display": "prenataal onderzoek en zorg voor moeder (verrichting)"
                }
            ]
        },
        "subject": {
            "reference": "Patient/Leegwater",
            "display": "Anneke Leegwater"
        },
        "context": {
            "reference": "EpisodeOfCare/IZK-AnnekeLeegwater-EpisodeOfCare",
            "display": "Zwangerschapsdossier"
        },
        "performedPeriod": {
            "start": "2016-02-19",
            "end": "2016-02-20"
        }
      },
       "request": {
        "method": "PUT",
        "url": "Procedure/IZK-AnnekeLeegwater-Procedure-PrenataalOnderzoekEnZorg"
      }
    },
    {
      "fullUrl": "urn:uuid:IZK-AnnekeLeegwater-Procedure-Bevalling",
      "resource": {
        "resourceType": "Procedure",
        "id": "IZK-AnnekeLeegwater-Procedure-Bevalling",
        "meta": {
            "profile":  [
                "http://nictiz.nl/fhir/StructureDefinition/bc-DeliveryProcedure"
            ]
        },
        "status": "completed",
        "category": {
            "coding":  [
                {
                    "system": "http://snomed.info/sct",
                    "code": "386637004",
                    "display": "Obstetric procedure (procedure)"
                }
            ]
        },
        "code": {
            "coding":  [
                {
                    "system": "http://snomed.info/sct",
                    "code": "236973005",
                    "display": "Delivery procedure (procedure)"
                }
            ]
        },
        "subject": {
            "reference": "Patient/Leegwater",
            "display": "Anneke Leegwater"
        },
        "context": {
            "reference": "EpisodeOfCare/IZK-AnnekeLeegwater-EpisodeOfCare"
        },
        "performedPeriod": {
            "start": "2016-02-20"
        },
        "reasonReference":  [
            {
                "reference": "Condition/IZK-AnnekeLeegwater-Condition-Zwangerschap"
            }
        ]
      },
      "request": {
        "method": "PUT",
        "url": "Procedure/IZK-AnnekeLeegwater-Procedure-Bevalling"
      }
    },
    {
      "fullUrl": "urn:uuid:IZK-AnnekeLeegwater-Observation-Zwangerschapsduur",
      "resource": {
        "resourceType": "Observation",
        "id": "IZK-AnnekeLeegwater-Observation-Zwangerschapsduur",
        "meta": {
            "profile":  [
                "http://fhir.nl/fhir/StructureDefinition/nl-core-observation",
                "http://nictiz.nl/fhir/StructureDefinition/zib-Pregnancy-PregnancyDuration"
            ]
        },
        "extension":  [
            {
                "url": "http://nictiz.nl/fhir/StructureDefinition/observation-focusSTU3",
                "valueReference": {
                    "reference": "Condition/IZK-AnnekeLeegwater-Condition-Zwangerschap",
                    "display": "Zwangerschap Anneke Leegwater"
                }
            }
        ],
        "status": "final",
        "code": {
            "coding":  [
                {
                    "system": "http://snomed.info/sct",
                    "code": "57036006",
                    "display": "Fetal gestational age"
                }
            ]
        },
        "subject": {
            "reference": "Patient/Leegwater",
            "display": "Anneke Leegwater"
        },
        "context": {
            "reference": "EpisodeOfCare/IZK-AnnekeLeegwater-EpisodeOfCare",
            "display": "zwangerschap Leegwater"
        },
        "effectiveDateTime": "2021-05-06",
        "performer":  [
            {
                "reference": "Practitioner/IZK-AnnekeLeegwater-Practicioner",
                "display": "MW Verloskundige"
            }
        ],
        "valueQuantity": {
            "value": 12,
            "system": "urn:oid:2.16.840.1.113883.6.8",
            "code": "wk"
        }
      },
      "request": {
        "method": "PUT",
        "url": "Observation/IZK-AnnekeLeegwater-Observation-Zwangerschapsduur"
      }
    }
  ]
}